Subject,RunTime,Trial,TR,TrialType,CueValue,TrialOnset,CueOnset,DelayOnset,TargetOnset,FeedBackOnset,CueDuration,TargetDuration,CurrentTargetDuration,ITI,RT,ACC,KeyPressed,TrialGain,Total,TotalWinPercent,Timing
39_b1,27-May-2014 17:40:36,1,7,1,-$0,0.2391,12.0214,14.0214,16.8881,18.0214,2,0.28335,0.300,6,0.30667,0,1!,-$0,$0.00,0,late
39_b1,27-May-2014 17:40:36,2,7,2,-$1,20.1736,26.0214,28.0214,30.9548,32.0214,2,0.23334,0.300,6,0.22901,1,1!,$0,$0.00,0.02381,hit
39_b1,27-May-2014 17:40:36,3,7,2,-$1,34.0323,40.0214,42.0214,44.3714,46.0214,2,0.28333,0.300,6,0.29333,0,1!,-$1,$-1.00,0.02381,late
39_b1,27-May-2014 17:40:36,4,5,4,+$0,48.0313,54.0214,56.0214,58.9548,60.0214,2,0.25,0.300,2,0.231,1,1!,+$0,$-1.00,0.047619,hit
39_b1,27-May-2014 17:40:36,5,6,4,+$0,62.0306,64.0214,66.0214,68.7548,70.0214,2,0.26667,0.300,4,0.258,1,1!,+$0,$-1.00,0.071429,hit
39_b1,27-May-2014 17:40:36,6,6,6,+$5,72.0299,76.0214,78.0214,80.3548,82.0215,2,0.21666,0.300,4,0.205,1,1!,+$5,$4.00,0.095238,hit
39_b1,27-May-2014 17:40:36,7,7,4,+$0,84.0302,88.0214,90.0214,92.4881,94.0214,2,0.23334,0.300,6,0.22667,1,1!,+$0,$4.00,0.11905,hit
39_b1,27-May-2014 17:40:36,8,6,4,+$0,96.0297,102.0214,104.0214,106.6881,108.0214,2,0.25,0.280,4,0.23266,1,1!,+$0,$4.00,0.14286,hit
39_b1,27-May-2014 17:40:36,9,7,3,-$5,110.0299,114.0214,116.0214,118.9881,120.0214,2,0.23333,0.300,6,0.22167,1,1!,$0,$4.00,0.16667,hit
39_b1,27-May-2014 17:40:36,10,6,2,-$1,122.0305,128.0214,130.0214,133.0048,134.0214,2,0.25001,0.300,4,0.23601,1,1!,$0,$4.00,0.19048,hit
39_b1,27-May-2014 17:40:36,11,7,5,+$1,136.0302,140.0214,142.0214,144.3881,146.0214,2,0.26667,0.300,6,0.24768,1,1!,+$1,$5.00,0.21429,hit
39_b1,27-May-2014 17:40:36,12,5,1,-$0,148.0299,154.0214,156.0214,159.0048,160.0214,2,0.23333,0.300,2,0.22401,1,1!,$0,$5.00,0.2381,hit
39_b1,27-May-2014 17:40:36,13,5,5,+$1,162.0299,164.0214,166.0214,168.9881,170.0214,2,0.23333,0.300,2,0.21466,1,1!,+$1,$6.00,0.2619,hit
39_b1,27-May-2014 17:40:36,14,7,5,+$1,172.0292,174.0214,176.0214,178.6381,180.0214,2,0.23333,0.300,6,0.21568,1,1!,+$1,$7.00,0.28571,hit
39_b1,27-May-2014 17:40:36,15,5,6,+$5,182.0308,188.0214,190.0214,192.8714,194.0214,2,0.23333,0.300,2,0.22334,1,1!,+$5,$12.00,0.30952,hit
39_b1,27-May-2014 17:40:36,16,6,3,-$5,196.0299,198.0214,200.0214,202.3881,204.0214,2,0.21667,0.300,4,0.20866,1,1!,$0,$12.00,0.33333,hit
39_b1,27-May-2014 17:40:36,17,6,4,+$0,206.0299,210.0214,212.0214,214.5881,216.0214,2,0.23333,0.260,4,0.23568,0,1!,$0,$12.00,0.33333,late
39_b1,27-May-2014 17:40:36,18,7,2,-$1,218.0299,222.0214,224.0214,226.9548,228.0214,2,0.25,0.280,6,0.239,1,1!,$0,$12.00,0.35714,hit
39_b1,27-May-2014 17:40:36,19,5,1,-$0,230.0298,236.0214,238.0214,240.8714,242.0214,2,0.25,0.300,2,0.23433,1,1!,$0,$12.00,0.38095,hit
39_b1,27-May-2014 17:40:36,20,6,2,-$1,244.029,246.0214,248.0214,250.9881,252.0214,2,0.21666,0.260,4,0.20467,1,1!,$0,$12.00,0.40476,hit
39_b1,27-May-2014 17:40:36,21,7,6,+$5,254.0303,258.0214,260.0214,262.7714,264.0214,2,0.20001,0.300,6,0.18934,1,1!,+$5,$17.00,0.42857,hit
39_b1,27-May-2014 17:40:36,22,7,3,-$5,266.0299,272.0214,274.0214,276.3048,278.0214,2,0.28333,0.300,6,NaN,0,NaN,-$5,$12.00,0.42857,noResponse
39_b1,27-May-2014 17:40:36,23,6,6,+$5,280.0316,286.0214,288.0214,290.9048,292.0214,2,0.25,0.280,4,0.233,1,1!,+$5,$17.00,0.45238,hit
39_b1,27-May-2014 17:40:36,24,5,5,+$1,294.0299,298.0214,300.0214,302.9714,304.0214,2,0.21667,0.280,2,0.19634,1,1!,+$1,$18.00,0.47619,hit
39_b1,27-May-2014 17:40:36,25,6,3,-$5,306.0299,308.0214,310.0214,312.7881,314.0214,2,0.25,0.280,4,0.27968,0,1!,-$5,$13.00,0.47619,late
39_b1,27-May-2014 17:40:36,26,7,2,-$1,316.0299,320.0214,322.0214,324.8381,326.0214,2,0.21666,0.240,6,0.24167,0,1!,-$1,$12.00,0.47619,late
39_b1,27-May-2014 17:40:36,27,6,5,+$1,328.0299,334.0214,336.0214,338.8381,340.0214,2,0.23333,0.260,4,NaN,0,NaN,$0,$12.00,0.47619,noResponse
39_b1,27-May-2014 17:40:36,28,5,1,-$0,342.0298,346.0214,348.0214,350.5714,352.0214,2,0.25,0.280,2,0.24333,1,1!,$0,$12.00,0.5,hit
39_b1,27-May-2014 17:40:36,29,5,5,+$1,354.03,356.0214,358.0214,360.7714,362.0214,2,0.21666,0.240,2,NaN,0,NaN,$0,$12.00,0.5,noResponse
39_b1,27-May-2014 17:40:36,30,7,6,+$5,364.0307,366.0214,368.0214,370.4048,372.0214,2,0.23334,0.260,6,0.21801,1,1!,+$5,$17.00,0.52381,hit
39_b1,27-May-2014 17:40:36,31,7,1,-$0,374.0299,380.0214,382.0214,384.8048,386.0214,2,0.23334,0.260,6,0.252,0,1!,-$0,$17.00,0.52381,late
39_b1,27-May-2014 17:40:36,32,7,4,+$0,388.0299,394.0214,396.0214,398.3048,400.0214,2,0.21667,0.240,6,0.279,0,1!,$0,$17.00,0.52381,late
39_b1,27-May-2014 17:40:36,33,5,2,-$1,402.0299,408.0214,410.0214,412.4881,414.0214,2,0.20001,0.220,2,0.21468,0,1!,-$1,$16.00,0.52381,late
39_b1,27-May-2014 17:40:36,34,5,4,+$0,416.0299,418.0214,420.0214,422.3048,424.0214,2,0.20001,0.220,2,0.464,0,1!,$0,$16.00,0.52381,late
39_b1,27-May-2014 17:40:36,35,6,6,+$5,426.0292,428.0214,430.0214,432.3548,434.0214,2,0.21667,0.240,4,NaN,0,NaN,$0,$16.00,0.52381,noResponse
39_b1,27-May-2014 17:40:36,36,6,1,-$0,436.0298,440.0214,442.0214,444.8881,446.0214,2,0.25,0.280,4,0.23368,1,1!,$0,$16.00,0.54762,hit
39_b1,27-May-2014 17:40:36,37,5,6,+$5,448.0298,452.0214,454.0214,456.7881,458.0214,2,0.2,0.220,2,0.21367,0,1!,$0,$16.00,0.54762,late
39_b1,27-May-2014 17:40:36,38,6,3,-$5,460.0298,462.0214,464.0214,466.5048,468.0214,2,0.21666,0.300,4,0.19999,1,1!,$0,$16.00,0.57143,hit
39_b1,27-May-2014 17:40:36,39,5,5,+$1,470.0299,474.0214,476.0214,478.9881,480.0214,2,0.2,0.220,2,0.21668,0,1!,$0,$16.00,0.57143,late
39_b1,27-May-2014 17:40:36,40,5,3,-$5,482.0304,484.0214,486.0214,488.3048,490.0214,2,0.21667,0.320,2,0.204,1,1!,$0,$16.00,0.59524,hit
39_b1,27-May-2014 17:40:36,41,5,3,-$5,492.029,494.0214,496.0214,498.6048,500.0214,2,0.19999,0.300,2,0.185,1,1!,$0,$16.00,0.61905,hit
39_b1,27-May-2014 17:40:36,42,6,1,-$0,502.0298,504.0214,506.0214,508.5548,510.0214,2,0.25001,0.260,4,0.31001,0,1!,-$0,$16.00,0.61905,early
