Subject,RunTime,Trial,TR,TrialType,CueValue,TrialOnset,CueOnset,DelayOnset,TargetOnset,FeedBackOnset,CueDuration,TargetDuration,CurrentTargetDuration,ITI,RT,ACC,KeyPressed,TrialGain,Total,TotalWinPercent,Timing
127_b2,05-May-2014 16:30:50,43,7,4,+$0,0.18057,18.0295,20.0295,22.8462,24.0295,2,0.21666,0.275,6,0.20355,1,1!,+$0,$0.00,0.020833,hit
127_b2,05-May-2014 16:30:50,44,6,2,-$1,26.0406,32.0295,34.0295,36.8628,38.0295,2,0.21667,0.275,4,0.19788,1,1!,$0,$0.00,0.041667,hit
127_b2,05-May-2014 16:30:50,45,5,5,+$1,40.038,44.0295,46.0295,48.4128,50.0295,2,0.24999,0.275,2,0.23889,1,1!,+$1,$1.00,0.0625,hit
127_b2,05-May-2014 16:30:50,46,5,1,-$0,52.0382,54.0295,56.0295,58.6462,60.0295,2,0.20001,0.275,2,0.18756,1,1!,$0,$1.00,0.083333,hit
127_b2,05-May-2014 16:30:50,47,6,6,+$5,62.0378,64.0295,66.0295,68.6128,70.0295,2,0.2,0.275,4,0.18689,1,1!,+$5,$6.00,0.10417,hit
127_b2,05-May-2014 16:30:50,48,6,2,-$1,72.0378,76.0295,78.0295,80.7628,82.0295,2,0.19999,0.275,4,0.18089,1,1!,$0,$6.00,0.125,hit
127_b2,05-May-2014 16:30:50,49,7,4,+$0,84.0387,88.0295,90.0295,92.8128,94.0295,2,0.21667,0.275,6,0.2019,1,1!,+$0,$6.00,0.14583,hit
127_b2,05-May-2014 16:30:50,50,5,1,-$0,96.0378,102.0295,104.0295,106.8462,108.0295,2,0.24999,0.275,2,0.48555,0,1!,-$0,$6.00,0.14583,late
127_b2,05-May-2014 16:30:50,51,5,4,+$0,110.0388,112.0128,114.0295,116.4795,118.0295,2.0167,0.21666,0.275,2,0.21122,1,1!,+$0,$6.00,0.16667,hit
127_b2,05-May-2014 16:30:50,52,7,3,-$5,120.0714,122.0295,124.0295,126.7795,128.0295,2,0.21667,0.275,6,0.19722,1,1!,$0,$6.00,0.1875,hit
127_b2,05-May-2014 16:30:50,53,7,2,-$1,130.0387,136.0295,138.0295,140.7628,142.0295,2,0.23334,0.275,6,0.21389,1,1!,$0,$6.00,0.20833,hit
127_b2,05-May-2014 16:30:50,54,6,6,+$5,144.0379,150.0295,152.0295,154.3962,156.0295,2,0.2,0.275,4,0.18555,1,1!,+$5,$11.00,0.22917,hit
127_b2,05-May-2014 16:30:50,55,7,2,-$1,158.0379,162.0295,164.0295,166.3628,168.0295,2,0.23332,0.255,6,0.24089,0,1!,-$1,$10.00,0.22917,late
127_b2,05-May-2014 16:30:50,56,6,4,+$0,170.0386,176.0295,178.0295,180.6462,182.0295,2,0.2,0.255,4,0.19556,1,1!,+$0,$10.00,0.25,hit
127_b2,05-May-2014 16:30:50,57,5,3,-$5,184.0378,188.0295,190.0295,192.9962,194.0295,2,0.2,0.275,2,0.19459,1,1!,$0,$10.00,0.27083,hit
127_b2,05-May-2014 16:30:50,58,7,2,-$1,196.0378,198.0295,200.0295,202.5295,204.0295,2,0.20001,0.235,6,0.18822,1,1!,$0,$10.00,0.29167,hit
127_b2,05-May-2014 16:30:50,59,5,3,-$5,206.0378,212.0295,214.0295,216.7128,218.0295,2,0.19999,0.275,2,0.18289,1,1!,$0,$10.00,0.3125,hit
127_b2,05-May-2014 16:30:50,60,7,3,-$5,220.0379,222.0295,224.0295,226.4462,228.0295,2,0.2,0.255,6,0.18956,1,1!,$0,$10.00,0.33333,hit
127_b2,05-May-2014 16:30:50,61,6,6,+$5,230.0379,236.0295,238.0295,240.8295,242.0295,2,0.21666,0.275,4,0.19821,1,1!,+$5,$15.00,0.35417,hit
127_b2,05-May-2014 16:30:50,62,7,6,+$5,244.0378,248.0295,250.0295,252.4628,254.0295,2,0.21666,0.255,6,0.20088,1,1!,+$5,$20.00,0.375,hit
127_b2,05-May-2014 16:30:50,63,5,3,-$5,256.0379,262.0295,264.0295,266.6462,268.0295,2,0.19999,0.235,2,0.19555,1,1!,$0,$20.00,0.39583,hit
127_b2,05-May-2014 16:30:50,64,7,2,-$1,270.0378,272.0295,274.0295,276.7962,278.0295,2,0.19999,0.215,6,NaN,0,NaN,-$1,$19.00,0.39583,noResponse
127_b2,05-May-2014 16:30:50,65,7,1,-$0,280.0384,286.0295,288.0295,290.9462,292.0295,2,0.2,0.275,6,0.19356,1,1!,$0,$19.00,0.41667,hit
127_b2,05-May-2014 16:30:50,66,6,3,-$5,294.0378,300.0295,302.0295,304.9962,306.0295,2,0.18334,0.215,4,0.18756,0,1!,-$5,$14.00,0.41667,late
127_b2,05-May-2014 16:30:50,67,5,4,+$0,308.0378,312.0295,314.0295,316.6795,318.0295,2,0.21666,0.235,2,NaN,0,NaN,$0,$14.00,0.41667,noResponse
127_b2,05-May-2014 16:30:50,68,6,5,+$1,320.0385,322.0295,324.0295,326.3795,328.0295,2,0.19999,0.275,4,0.19122,1,1!,+$1,$15.00,0.4375,hit
127_b2,05-May-2014 16:30:50,69,7,2,-$1,330.0368,334.0295,336.0295,338.3795,340.0295,2,0.18335,0.195,6,0.19822,0,1!,-$1,$14.00,0.4375,late
127_b2,05-May-2014 16:30:50,70,5,5,+$1,342.0379,348.0295,350.0295,352.4628,354.0295,2,0.21667,0.275,2,0.20689,1,1!,+$1,$15.00,0.45833,hit
127_b2,05-May-2014 16:30:50,71,7,1,-$0,356.0378,358.0295,360.0295,362.9128,364.0295,2,0.21668,0.255,6,0.2079,1,1!,$0,$15.00,0.47917,hit
127_b2,05-May-2014 16:30:50,72,5,5,+$1,366.038,372.0295,374.0295,376.4628,378.0295,2,0.2,0.255,2,0.1869,1,1!,+$1,$16.00,0.5,hit
127_b2,05-May-2014 16:30:50,73,6,6,+$5,380.0386,382.0295,384.0295,386.8795,388.0295,2,0.2,0.235,4,0.18522,1,1!,+$5,$21.00,0.52083,hit
127_b2,05-May-2014 16:30:50,74,7,5,+$1,390.0379,394.0295,396.0295,398.4628,400.0295,2,0.20001,0.235,6,0.22589,0,1!,$0,$21.00,0.52083,late
127_b2,05-May-2014 16:30:50,75,7,3,-$5,402.0378,408.0295,410.0295,412.9628,414.0295,2,0.18333,0.195,6,0.18689,0,1!,-$5,$16.00,0.52083,late
127_b2,05-May-2014 16:30:50,76,6,3,-$5,416.0386,422.0295,424.0295,426.5295,428.0295,2,0.066668,0.175,4,0.055224,1,1!,$0,$16.00,0.54167,hit
127_b2,05-May-2014 16:30:50,77,5,6,+$5,430.038,434.0295,436.0295,438.4295,440.0295,2,0.18333,0.215,2,0.20123,0,1!,$0,$16.00,0.54167,late
127_b2,05-May-2014 16:30:50,78,6,5,+$1,442.0378,444.0295,446.0295,448.4628,450.0295,2,0.19999,0.215,4,0.18188,1,1!,+$1,$17.00,0.5625,hit
127_b2,05-May-2014 16:30:50,79,6,5,+$1,452.0378,456.0295,458.0295,460.7295,462.0295,2,0.18333,0.195,4,0.18622,0,1!,$0,$17.00,0.5625,late
127_b2,05-May-2014 16:30:50,80,6,2,-$1,464.0372,468.0295,470.0295,472.6295,474.0295,2,0.19999,0.215,4,NaN,0,NaN,-$1,$16.00,0.5625,noResponse
127_b2,05-May-2014 16:30:50,81,5,1,-$0,476.0377,480.0295,482.0295,484.5462,486.0295,2,0.20001,0.235,2,0.18056,1,1!,$0,$16.00,0.58333,hit
127_b2,05-May-2014 16:30:50,82,6,6,+$5,488.0368,490.0295,492.0295,494.8962,496.0295,2,0.18333,0.195,4,0.19157,0,1!,$0,$16.00,0.58333,late
127_b2,05-May-2014 16:30:50,83,6,4,+$0,498.0378,502.0295,504.0295,506.7128,508.0295,2,0.19999,0.215,4,0.20489,0,1!,$0,$16.00,0.58333,late
127_b2,05-May-2014 16:30:50,84,6,4,+$0,510.0379,514.0295,516.0295,518.6795,520.0295,2,0.18334,0.195,4,0.20023,0,1!,$0,$16.00,0.58333,late
127_b2,05-May-2014 16:30:50,85,7,1,-$0,522.0378,526.0295,528.0295,530.9628,532.0295,2,0.2,0.215,6,0.22289,0,1!,-$0,$16.00,0.58333,late
127_b2,05-May-2014 16:30:50,86,5,4,+$0,534.0379,540.0295,542.0295,544.4962,546.0295,2,0.18333,0.215,2,0.21855,0,1!,$0,$16.00,0.58333,late
127_b2,05-May-2014 16:30:50,87,7,5,+$1,548.038,550.0295,552.0295,554.8462,556.0295,2,0.15,0.175,6,0.27755,0,1!,$0,$16.00,0.58333,early
127_b2,05-May-2014 16:30:50,88,5,1,-$0,558.0378,564.0295,566.0295,568.8462,570.0295,2,0.16666,0.195,2,0.27555,0,1!,-$0,$16.00,0.58333,late
127_b2,05-May-2014 16:30:50,89,5,1,-$0,572.0378,574.0295,576.0295,578.5628,580.0295,2,0.18333,0.215,2,0.34789,0,1!,-$0,$16.00,0.58333,early
127_b2,05-May-2014 16:30:50,90,5,6,+$5,582.0379,584.0295,586.0295,588.6962,590.0295,2,0.15,0.175,2,0.19856,0,1!,$0,$16.00,0.58333,late
