Subject,RunTime,Trial,TR,TrialType,CueValue,TrialOnset,CueOnset,DelayOnset,TargetOnset,FeedBackOnset,CueDuration,TargetDuration,CurrentTargetDuration,ITI,RT,ACC,KeyPressed,TrialGain,Total,TotalWinPercent,Timing
128_b2,05-May-2014 16:59:58,43,7,4,+$0,0.17621,20.0245,22.0244,24.4078,26.0245,2,0.18334,0.200,6,0.25689,0,1!,$0,$0.00,0,late
128_b2,05-May-2014 16:59:58,44,6,2,-$1,28.0353,34.0245,36.0245,38.4745,40.0245,2,0.18333,0.200,4,0.21422,0,1!,-$1,$-1.00,0,late
128_b2,05-May-2014 16:59:58,45,5,5,+$1,42.0329,46.0245,48.0244,50.3911,52.0245,2,0.16667,0.200,2,NaN,0,NaN,$0,$-1.00,0,noResponse
128_b2,05-May-2014 16:59:58,46,5,1,-$0,54.0326,56.0245,58.0245,60.3745,62.0245,2,0.18332,0.200,2,0.21422,0,1!,-$0,$-1.00,0,late
128_b2,05-May-2014 16:59:58,47,6,6,+$5,64.0326,66.0245,68.0245,70.9245,72.0244,2,0.18332,0.200,4,0.20322,0,1!,$0,$-1.00,0,late
128_b2,05-May-2014 16:59:58,48,6,2,-$1,74.0328,78.0245,80.0245,82.7078,84.0245,2,0.18334,0.200,4,0.2059,0,1!,-$1,$-2.00,0,late
128_b2,05-May-2014 16:59:58,49,7,4,+$0,86.033,90.0245,92.0245,94.6911,96.0245,2,0.16666,0.200,6,0.19755,0,1!,$0,$-2.00,0,late
128_b2,05-May-2014 16:59:58,50,5,1,-$0,98.0327,104.0245,106.0244,108.3745,110.0245,2,0.18333,0.200,2,0.20922,0,1!,-$0,$-2.00,0,late
128_b2,05-May-2014 16:59:58,51,5,4,+$0,112.0326,114.0244,116.0245,118.9078,120.0245,2,0.18332,0.200,2,NaN,0,NaN,$0,$-2.00,0,noResponse
128_b2,05-May-2014 16:59:58,52,7,3,-$5,122.0333,124.0245,126.0244,128.7411,130.0245,2,0.18333,0.200,6,0.19256,0,1!,-$5,$-7.00,0,late
128_b2,05-May-2014 16:59:58,53,7,2,-$1,132.0327,138.0244,140.0245,142.5411,144.0244,2,0.18333,0.200,6,0.27156,0,1!,-$1,$-8.00,0,late
128_b2,05-May-2014 16:59:58,54,6,6,+$5,146.0327,152.0245,154.0245,156.6578,158.0245,2,0.18333,0.200,4,NaN,0,NaN,$0,$-8.00,0,noResponse
128_b2,05-May-2014 16:59:58,55,7,2,-$1,160.0326,164.0245,166.0245,168.5745,170.0244,2,0.19999,0.220,6,0.18721,1,1!,$0,$-8.00,0.020833,hit
128_b2,05-May-2014 16:59:58,56,6,4,+$0,172.0327,178.0244,180.0245,182.3244,184.0245,2,0.20001,0.220,4,0.20323,0,1!,$0,$-8.00,0.020833,late
128_b2,05-May-2014 16:59:58,57,5,3,-$5,186.0328,190.0245,192.0245,194.4578,196.0245,2,0.18334,0.200,2,0.19989,0,1!,-$5,$-13.00,0.020833,late
128_b2,05-May-2014 16:59:58,58,7,2,-$1,198.0328,200.0245,202.0244,204.3744,206.0245,2,0.21667,0.240,6,0.19922,1,1!,$0,$-13.00,0.041667,hit
128_b2,05-May-2014 16:59:58,59,5,3,-$5,208.0334,214.0245,216.0245,218.4078,220.0245,2,0.18333,0.200,2,0.21587,0,1!,-$5,$-18.00,0.041667,late
128_b2,05-May-2014 16:59:58,60,7,3,-$5,222.0328,224.0245,226.0245,228.4578,230.0245,2,0.20001,0.220,6,0.20589,0,1!,-$5,$-23.00,0.041667,late
128_b2,05-May-2014 16:59:58,61,6,6,+$5,232.033,238.0245,240.0244,242.5911,244.0245,2,0.18332,0.200,4,0.19655,0,1!,$0,$-23.00,0.041667,late
128_b2,05-May-2014 16:59:58,62,7,6,+$5,246.0329,250.0245,252.0244,254.3078,256.0245,2,0.2,0.220,6,0.18588,1,1!,+$5,$-18.00,0.0625,hit
128_b2,05-May-2014 16:59:58,63,5,3,-$5,258.0327,264.0245,266.0245,268.9578,270.0245,2,0.21667,0.240,2,NaN,0,NaN,-$5,$-23.00,0.0625,noResponse
128_b2,05-May-2014 16:59:58,64,7,2,-$1,272.0327,274.0245,276.0244,278.9745,280.0244,2,0.23334,0.260,6,0.21622,1,1!,$0,$-23.00,0.083333,hit
128_b2,05-May-2014 16:59:58,65,7,1,-$0,282.0329,288.0245,290.0245,292.6411,294.0245,2,0.18333,0.200,6,NaN,0,NaN,-$0,$-23.00,0.083333,noResponse
128_b2,05-May-2014 16:59:58,66,6,3,-$5,296.0327,302.0245,304.0244,306.6411,308.0244,2,0.2,0.260,4,0.18955,1,1!,$0,$-23.00,0.10417,hit
128_b2,05-May-2014 16:59:58,67,5,4,+$0,310.0328,314.0244,316.0244,318.5244,320.0245,2,0.21667,0.240,2,0.24821,0,1!,$0,$-23.00,0.10417,late
128_b2,05-May-2014 16:59:58,68,6,5,+$1,322.0329,324.0245,326.0245,328.9411,330.0245,2,0.18333,0.200,4,0.22755,0,1!,$0,$-23.00,0.10417,late
128_b2,05-May-2014 16:59:58,69,7,2,-$1,332.0327,336.0245,338.0245,340.5578,342.0245,2,0.21667,0.280,6,0.21088,1,1!,$0,$-23.00,0.125,hit
128_b2,05-May-2014 16:59:58,70,5,5,+$1,344.0328,350.0245,352.0244,354.3578,356.0245,2,0.18333,0.200,2,0.21189,0,1!,$0,$-23.00,0.125,late
128_b2,05-May-2014 16:59:58,71,7,1,-$0,358.0329,360.0245,362.0244,364.8578,366.0244,2,0.18332,0.220,6,0.17787,1,1!,$0,$-23.00,0.14583,hit
128_b2,05-May-2014 16:59:58,72,5,5,+$1,368.0328,374.0245,376.0245,378.5744,380.0245,2,0.18334,0.220,2,0.19723,0,1!,$0,$-23.00,0.14583,late
128_b2,05-May-2014 16:59:58,73,6,6,+$5,382.0318,384.0245,386.0245,388.4578,390.0245,2,0.20001,0.240,4,0.18389,1,1!,+$5,$-18.00,0.16667,hit
128_b2,05-May-2014 16:59:58,74,7,5,+$1,392.0327,396.0245,398.0244,400.5744,402.0245,2,0.21667,0.240,6,0.19823,1,1!,+$1,$-17.00,0.1875,hit
128_b2,05-May-2014 16:59:58,75,7,3,-$5,404.0327,410.0244,412.0244,414.3411,416.0244,2,0.21668,0.280,6,0.21256,1,1!,$0,$-17.00,0.20833,hit
128_b2,05-May-2014 16:59:58,76,6,3,-$5,418.0329,424.0244,426.0245,428.3745,430.0244,2,0.23334,0.300,4,0.21322,1,1!,$0,$-17.00,0.22917,hit
128_b2,05-May-2014 16:59:58,77,5,6,+$5,432.0335,436.0244,438.0245,440.9745,442.0244,2,0.20001,0.260,2,0.19221,1,1!,+$5,$-12.00,0.25,hit
128_b2,05-May-2014 16:59:58,78,6,5,+$1,444.0317,446.0245,448.0245,450.9911,452.0245,2,0.23332,0.260,4,0.21554,1,1!,+$1,$-11.00,0.27083,hit
128_b2,05-May-2014 16:59:58,79,6,5,+$1,454.0327,458.0245,460.0245,462.7078,464.0245,2,0.21666,0.280,4,0.20088,1,1!,+$1,$-10.00,0.29167,hit
128_b2,05-May-2014 16:59:58,80,6,2,-$1,466.0328,470.0245,472.0245,474.3245,476.0245,2,0.19999,0.300,4,0.19322,1,1!,$0,$-10.00,0.3125,hit
128_b2,05-May-2014 16:59:58,81,5,1,-$0,478.0317,482.0245,484.0245,486.4578,488.0245,2,0.19999,0.240,2,0.19388,1,1!,$0,$-10.00,0.33333,hit
128_b2,05-May-2014 16:59:58,82,6,6,+$5,490.0328,492.0244,494.0245,496.5411,498.0245,2,0.23334,0.280,4,0.21456,1,1!,+$5,$-5.00,0.35417,hit
128_b2,05-May-2014 16:59:58,83,6,4,+$0,500.0328,504.0245,506.0245,508.8911,510.0245,2,0.23334,0.260,4,0.26756,0,1!,$0,$-5.00,0.35417,late
128_b2,05-May-2014 16:59:58,84,6,4,+$0,512.0325,516.0245,518.0245,520.2911,522.0244,2,0.21666,0.280,4,0.19756,1,1!,+$0,$-5.00,0.375,hit
128_b2,05-May-2014 16:59:58,85,7,1,-$0,524.0327,528.0245,530.0245,532.3078,534.0245,2,0.23334,0.260,6,NaN,0,NaN,-$0,$-5.00,0.375,noResponse
128_b2,05-May-2014 16:59:58,86,5,4,+$0,536.0319,542.0245,544.0245,546.4078,548.0245,2,0.21667,0.300,2,0.19789,1,1!,+$0,$-5.00,0.39583,hit
128_b2,05-May-2014 16:59:58,87,7,5,+$1,550.0328,552.0245,554.0245,556.7578,558.0244,2,0.18333,0.300,6,0.17389,1,1!,+$1,$-4.00,0.41667,hit
128_b2,05-May-2014 16:59:58,88,5,1,-$0,560.0328,566.0244,568.0245,570.8245,572.0245,2,0.23333,0.280,2,0.22021,1,1!,$0,$-4.00,0.4375,hit
128_b2,05-May-2014 16:59:58,89,5,1,-$0,574.0332,576.0244,578.0245,580.7578,582.0245,2,0.23333,0.300,2,0.21989,1,1!,$0,$-4.00,0.45833,hit
128_b2,05-May-2014 16:59:58,90,5,6,+$5,584.0328,586.0245,588.0245,590.6078,592.0245,2,0.19999,0.300,2,0.19088,1,1!,+$5,$1.00,0.47917,hit
