Subject,RunTime,Trial,TR,TrialType,CueValue,TrialOnset,CueOnset,DelayOnset,TargetOnset,FeedBackOnset,CueDuration,TargetDuration,CurrentTargetDuration,ITI,RT,ACC,KeyPressed,TrialGain,Total,TotalWinPercent,Timing
39_practice,13-May-2014 15:52:08,1,7,3,-$5,0.081297,2.0217,4.025,6.8797,8.0316,2.0033,0.28381,0.300,6,0.47907,0,space,-$5,$-5.00,0,late
39_practice,13-May-2014 15:52:08,2,5,6,+$5,10.2779,16.0281,18.0313,20.9528,22.0212,2.0033,0.28381,0.300,2,0.32594,0,space,$0,$-5.00,0,late
39_practice,13-May-2014 15:52:08,3,5,5,+$1,24.035,26.0278,28.0311,30.3683,32.021,2.0033,0.2838,0.300,2,0.35047,0,space,$0,$-5.00,0,late
39_practice,13-May-2014 15:52:08,4,5,1,-$0,34.0325,36.0276,38.0309,40.9523,42.0208,2.0033,0.2838,0.300,2,NaN,0,NaN,-$0,$-5.00,0,noResponse
39_practice,13-May-2014 15:52:08,5,6,2,-$1,44.0327,46.0273,48.0306,50.7517,52.0205,2.0033,0.26711,0.300,4,0.255,1,space,$0,$-5.00,0.02381,hit
39_practice,13-May-2014 15:52:08,6,6,4,+$0,54.0326,58.0304,60.017,62.3541,64.0235,1.9866,0.26711,0.300,4,0.3646,0,space,$0,$-5.00,0.02381,late
39_practice,13-May-2014 15:52:08,7,7,6,+$5,66.0363,70.0167,72.02,74.4907,76.0266,2.0033,0.26709,0.300,6,0.27601,0,space,$0,$-5.00,0.02381,late
39_practice,13-May-2014 15:52:08,8,5,1,-$0,78.039,84.0231,86.0264,88.6807,90.0162,2.0033,0.28381,0.300,2,0.27004,1,space,$0,$-5.00,0.047619,hit
39_practice,13-May-2014 15:52:08,9,6,3,-$5,92.0279,94.0228,96.0261,98.9976,100.016,2.0033,0.25042,0.300,4,0.23311,1,space,$0,$-5.00,0.071429,hit
39_practice,13-May-2014 15:52:08,10,5,4,+$0,102.0278,106.0259,108.0292,111.0007,112.019,2.0033,0.25041,0.300,2,0.24605,1,space,+$0,$-5.00,0.095238,hit
39_practice,13-May-2014 15:52:08,11,7,5,+$1,114.0314,116.0256,118.0289,120.3995,122.0188,2.0033,0.20034,0.300,6,0.18328,1,space,+$1,$-4.00,0.11905,hit
39_practice,13-May-2014 15:52:08,12,6,1,-$0,124.0296,130.032,132.0186,135.0068,136.0251,1.9866,0.21702,0.300,4,0.19996,1,space,$0,$-4.00,0.14286,hit
39_practice,13-May-2014 15:52:08,13,5,1,-$0,138.0371,142.0183,144.0216,146.9932,148.0282,2.0033,0.21702,0.280,2,0.21362,1,space,$0,$-4.00,0.16667,hit
39_practice,13-May-2014 15:52:08,14,5,4,+$0,150.0399,152.0181,154.0214,156.6423,158.0279,2.0033,0.23371,0.300,2,0.22043,1,space,+$0,$-4.00,0.19048,hit
39_practice,13-May-2014 15:52:08,15,6,6,+$5,160.0395,162.0178,164.0211,166.8758,168.0277,2.0033,0.28379,0.300,4,0.29897,0,space,$0,$-4.00,0.19048,late
39_practice,13-May-2014 15:52:08,16,6,1,-$0,170.0391,174.0209,176.0242,178.378,180.0307,2.0033,0.2337,0.260,4,NaN,0,NaN,-$0,$-4.00,0.19048,noResponse
39_practice,13-May-2014 15:52:08,17,6,1,-$0,182.0257,186.0239,188.0272,190.5981,192.0171,2.0033,0.25043,0.280,4,NaN,0,NaN,-$0,$-4.00,0.19048,noResponse
39_practice,13-May-2014 15:52:08,18,7,2,-$1,194.0287,198.027,200.0302,202.9684,204.0201,2.0033,0.2671,0.300,6,NaN,0,NaN,-$1,$-5.00,0.19048,noResponse
39_practice,13-May-2014 15:52:08,19,7,2,-$1,206.0328,212.0166,214.0199,216.8746,218.0265,2.0033,0.2671,0.300,6,NaN,0,NaN,-$1,$-6.00,0.19048,noResponse
39_practice,13-May-2014 15:52:08,20,6,3,-$5,220.0379,226.023,228.0262,230.9978,232.0161,2.0033,0.21701,0.300,4,0.20897,1,space,$0,$-6.00,0.21429,hit
39_practice,13-May-2014 15:52:08,21,7,4,+$0,234.0269,238.026,240.0293,242.7671,244.0192,2.0033,0.23372,0.280,6,0.22366,1,space,+$0,$-6.00,0.2381,hit
39_practice,13-May-2014 15:52:08,22,7,5,+$1,246.03,252.0323,254.0189,256.306,258.0255,1.9866,0.26711,0.300,6,0.25275,1,space,+$1,$-5.00,0.2619,hit
39_practice,13-May-2014 15:52:08,23,5,2,-$1,260.0366,266.022,268.0253,270.9133,272.0318,2.0033,0.21702,0.320,2,0.20543,1,space,$0,$-5.00,0.28571,hit
39_practice,13-May-2014 15:52:08,24,6,5,+$1,274.0269,276.0217,278.025,280.9799,282.0316,2.0033,0.18362,0.280,4,0.17088,1,space,+$1,$-4.00,0.30952,hit
39_practice,13-May-2014 15:52:08,25,7,6,+$5,284.0255,288.0248,290.0281,292.7826,294.018,2.0033,0.23373,0.320,6,0.21617,1,space,+$5,$1.00,0.33333,hit
39_practice,13-May-2014 15:52:08,26,6,1,-$0,296.0295,302.0311,304.0177,306.839,308.0243,1.9866,0.2504,0.300,4,0.23175,1,space,$0,$1.00,0.35714,hit
39_practice,13-May-2014 15:52:08,27,5,4,+$0,310.0362,314.0175,316.0208,318.8254,320.0273,2.0033,0.20033,0.260,2,0.19741,1,space,+$0,$1.00,0.38095,hit
39_practice,13-May-2014 15:52:08,28,5,3,-$5,322.0397,324.0172,326.0205,328.5747,330.0271,2.0033,0.21701,0.280,2,0.20005,1,space,$0,$1.00,0.40476,hit
39_practice,13-May-2014 15:52:08,29,6,3,-$5,332.0388,334.017,336.0203,338.7581,340.0269,2.0033,0.25042,0.260,4,0.34467,0,space,-$5,$-4.00,0.40476,late
39_practice,13-May-2014 15:52:08,30,5,2,-$1,342.0385,346.02,348.0233,350.4106,352.0299,2.0033,0.23372,0.340,2,0.2202,1,space,$0,$-4.00,0.42857,hit
39_practice,13-May-2014 15:52:08,31,7,6,+$5,354.0406,356.0198,358.0231,360.811,362.0297,2.0033,0.21702,0.340,6,0.21177,1,space,+$5,$1.00,0.45238,hit
39_practice,13-May-2014 15:52:08,32,6,2,-$1,364.0246,370.0261,372.0294,374.2998,376.0193,2.0033,0.33388,0.360,4,0.32295,1,space,$0,$1.00,0.47619,hit
39_practice,13-May-2014 15:52:08,33,5,3,-$5,378.0317,382.0292,384.0324,386.4865,388.0223,2.0033,0.25042,0.280,2,0.26428,0,space,-$5,$-4.00,0.47619,early
39_practice,13-May-2014 15:52:08,34,7,6,+$5,390.0339,392.0289,394.0322,396.3026,398.0221,2.0033,0.2504,0.360,6,0.23215,1,space,+$5,$1.00,0.5,hit
39_practice,13-May-2014 15:52:08,35,6,3,-$5,400.0329,406.0186,408.0219,410.3423,412.0284,2.0033,0.28379,0.300,4,0.54443,0,space,-$5,$-4.00,0.5,late
39_practice,13-May-2014 15:52:08,36,6,2,-$1,414.04,418.0216,420.0249,422.8963,424.0315,2.0033,0.20033,0.340,4,0.19047,1,space,$0,$-4.00,0.52381,hit
39_practice,13-May-2014 15:52:08,37,7,4,+$0,426.0256,430.0247,432.028,434.7992,436.0178,2.0033,0.21701,0.240,6,NaN,0,NaN,$0,$-4.00,0.52381,noResponse
39_practice,13-May-2014 15:52:08,38,7,5,+$1,438.0302,444.031,446.0176,448.505,450.0242,1.9866,0.23371,0.260,6,0.22175,1,space,+$1,$-3.00,0.54762,hit
39_practice,13-May-2014 15:52:08,39,7,5,+$1,452.0359,458.0206,460.0239,462.9788,464.0305,2.0033,0.23371,0.240,6,0.24398,0,space,$0,$-3.00,0.54762,late
39_practice,13-May-2014 15:52:08,40,5,4,+$0,466.0255,472.027,474.0303,476.3007,478.0202,2.0033,0.20032,0.220,2,0.49809,0,space,$0,$-3.00,0.54762,late
39_practice,13-May-2014 15:52:08,41,7,6,+$5,480.0318,482.0267,484.03,486.6009,488.0199,2.0033,0.25041,0.380,6,0.23784,1,space,+$5,$2.00,0.57143,hit
39_practice,13-May-2014 15:52:08,42,5,5,+$1,490.0316,496.0164,498.0197,500.5572,502.0262,2.0033,0.20033,0.220,2,0.24958,0,space,$0,$2.00,0.57143,late
