Subject,RunTime,Trial,TR,TrialType,CueValue,TrialOnset,CueOnset,DelayOnset,TargetOnset,FeedBackOnset,CueDuration,TargetDuration,CurrentTargetDuration,ITI,RT,ACC,KeyPressed,TrialGain,Total,TotalWinPercent,Timing
128_practice,03-Jun-2014 15:03:27,1,7,3,-$5,0.1162,2.0286,4.0319,6.9867,8.0218,2.0033,0.3172,0.400,6,0.29795,1,space,$0,$0.00,0.02381,hit
128_practice,03-Jun-2014 15:03:27,2,5,6,+$5,10.0367,16.0182,18.0215,20.6425,22.0281,2.0033,0.25041,0.400,2,0.23418,1,space,+$5,$5.00,0.047619,hit
128_practice,03-Jun-2014 15:03:27,3,5,5,+$1,24.0401,26.018,28.0213,30.876,32.0279,2.0033,0.21702,0.400,2,0.20871,1,space,+$1,$6.00,0.071429,hit
128_practice,03-Jun-2014 15:03:27,4,5,1,-$0,34.0398,36.0178,38.021,40.3749,42.0276,2.0033,0.23371,0.400,2,0.22978,1,space,$0,$6.00,0.095238,hit
128_practice,03-Jun-2014 15:03:27,5,6,2,-$1,44.0397,46.0175,48.0208,50.5917,52.0274,2.0033,0.21703,0.400,4,0.205,1,space,$0,$6.00,0.11905,hit
128_practice,03-Jun-2014 15:03:27,6,6,4,+$0,54.0393,58.0206,60.0239,62.962,64.0304,2.0033,0.23371,0.400,4,0.21867,1,space,+$0,$6.00,0.14286,hit
128_practice,03-Jun-2014 15:03:27,7,7,6,+$5,66.0258,70.0236,72.0269,74.8649,76.0168,2.0033,0.23372,0.400,6,0.2198,1,space,+$5,$11.00,0.16667,hit
128_practice,03-Jun-2014 15:03:27,8,5,1,-$0,78.0287,84.0299,86.0165,88.9881,90.0231,1.9866,0.23371,0.400,2,0.2166,1,space,$0,$11.00,0.19048,hit
128_practice,03-Jun-2014 15:03:27,9,6,3,-$5,92.0353,94.0297,96.0163,98.7708,100.0229,1.9866,0.21703,0.400,4,0.20988,1,space,$0,$11.00,0.21429,hit
128_practice,03-Jun-2014 15:03:27,10,5,4,+$0,102.0349,106.0161,108.0193,110.3064,112.0259,2.0033,0.21702,0.400,2,0.21025,1,space,+$0,$11.00,0.2381,hit
128_practice,03-Jun-2014 15:03:27,11,7,5,+$1,114.0379,116.0158,118.0191,120.9072,122.0257,2.0033,0.23372,0.400,6,0.21751,1,space,+$1,$12.00,0.2619,hit
128_practice,03-Jun-2014 15:03:27,12,6,1,-$0,124.0368,130.0221,132.0254,134.9803,136.032,2.0033,0.36728,0.400,4,NaN,0,NaN,-$0,$12.00,0.2619,early
128_practice,03-Jun-2014 15:03:27,13,5,1,-$0,138.0275,142.0252,144.0285,146.783,148.0184,2.0033,0.23371,0.380,2,0.22968,1,space,$0,$12.00,0.28571,hit
128_practice,03-Jun-2014 15:03:27,14,5,4,+$0,150.0311,152.025,154.0282,156.8495,158.0181,2.0033,0.23371,0.400,2,0.21915,1,space,+$0,$12.00,0.30952,hit
128_practice,03-Jun-2014 15:03:27,15,6,6,+$5,160.0302,162.0247,164.028,166.8326,168.0179,2.0033,0.23373,0.400,4,0.22009,1,space,+$5,$17.00,0.33333,hit
128_practice,03-Jun-2014 15:03:27,16,6,1,-$0,170.0298,174.0278,176.031,178.5685,180.0209,2.0033,0.20033,0.360,4,0.19614,1,space,$0,$17.00,0.35714,hit
128_practice,03-Jun-2014 15:03:27,17,6,1,-$0,182.0329,186.0308,188.0174,190.7719,192.024,1.9866,0.21703,0.340,4,0.20879,0,space,-$0,$17.00,0.35714,early
128_practice,03-Jun-2014 15:03:27,18,7,2,-$1,194.0359,198.0171,200.0204,202.4077,204.027,2.0033,0.23371,0.400,6,0.22099,1,space,$0,$17.00,0.38095,hit
128_practice,03-Jun-2014 15:03:27,19,7,2,-$1,206.039,212.0235,214.0268,216.798,218.0167,2.0033,0.23372,0.400,6,0.2147,1,space,$0,$17.00,0.40476,hit
128_practice,03-Jun-2014 15:03:27,20,6,3,-$5,220.0287,226.0298,228.0164,230.3035,232.023,1.9866,0.36727,0.400,4,0.35718,1,space,$0,$17.00,0.42857,hit
128_practice,03-Jun-2014 15:03:27,21,7,4,+$0,234.035,238.0162,240.0195,242.4902,244.026,2.0033,0.23372,0.380,6,0.2185,1,space,+$0,$17.00,0.45238,hit
128_practice,03-Jun-2014 15:03:27,22,7,5,+$1,246.0379,252.0225,254.0258,256.3129,258.0324,2.0033,0.23371,0.400,6,0.21979,1,space,+$1,$18.00,0.47619,hit
128_practice,03-Jun-2014 15:03:27,23,5,2,-$1,260.0277,266.0288,268.0321,270.3526,272.022,2.0033,0.30049,0.380,2,0.28407,1,space,$0,$18.00,0.5,hit
128_practice,03-Jun-2014 15:03:27,24,6,5,+$1,274.0339,276.0286,278.0319,280.8866,282.0218,2.0033,0.21702,0.380,4,0.21409,1,space,+$1,$19.00,0.52381,hit
128_practice,03-Jun-2014 15:03:27,25,7,6,+$5,284.0338,288.0317,290.0182,292.7895,294.0248,1.9866,0.23373,0.380,6,0.21523,1,space,+$5,$24.00,0.54762,hit
128_practice,03-Jun-2014 15:03:27,26,6,1,-$0,296.0369,302.0213,304.0246,306.512,308.0312,2.0033,0.20033,0.320,4,0.18867,1,space,$0,$24.00,0.57143,hit
128_practice,03-Jun-2014 15:03:27,27,5,4,+$0,310.0263,314.0243,316.0276,318.9825,320.0175,2.0033,0.21701,0.360,2,0.19819,1,space,+$0,$24.00,0.59524,hit
128_practice,03-Jun-2014 15:03:27,28,5,3,-$5,322.0296,324.0241,326.0274,328.2978,330.0173,2.0033,0.25041,0.380,2,0.2349,1,space,$0,$24.00,0.61905,hit
128_practice,03-Jun-2014 15:03:27,29,6,3,-$5,332.0293,334.0239,336.0272,338.598,340.017,2.0033,0.21703,0.360,4,0.20666,1,space,$0,$24.00,0.64286,hit
128_practice,03-Jun-2014 15:03:27,30,5,2,-$1,342.0289,346.0269,348.0302,350.5677,352.0201,2.0033,0.20033,0.360,2,0.197,1,space,$0,$24.00,0.66667,hit
128_practice,03-Jun-2014 15:03:27,31,7,6,+$5,354.0321,356.0267,358.03,360.8512,362.0198,2.0033,0.20033,0.360,6,0.18544,1,space,+$5,$29.00,0.69048,hit
128_practice,03-Jun-2014 15:03:27,32,6,2,-$1,364.0317,370.0163,372.0196,374.8743,376.0262,2.0033,0.10017,0.340,4,0.090412,1,space,$0,$29.00,0.71429,hit
128_practice,03-Jun-2014 15:03:27,33,5,3,-$5,378.0381,382.0193,384.0226,386.4099,388.0292,2.0033,0.23372,0.340,2,0.21879,1,space,$0,$29.00,0.7381,hit
128_practice,03-Jun-2014 15:03:27,34,7,6,+$5,390.0405,392.0191,394.0224,396.6434,398.029,2.0033,0.21703,0.340,6,0.20932,1,space,+$5,$34.00,0.7619,hit
128_practice,03-Jun-2014 15:03:27,35,6,3,-$5,400.041,406.0255,408.0287,410.6163,412.0186,2.0033,0.23372,0.320,4,0.22837,1,space,$0,$34.00,0.78571,hit
128_practice,03-Jun-2014 15:03:27,36,6,2,-$1,414.0306,418.0285,420.0318,422.7529,424.0217,2.0033,0.20032,0.320,4,0.19577,1,space,$0,$34.00,0.80952,hit
128_practice,03-Jun-2014 15:03:27,37,7,4,+$0,426.0337,430.0315,432.0181,434.8061,436.0247,1.9866,0.23371,0.340,6,0.22264,1,space,+$0,$34.00,0.83333,hit
128_practice,03-Jun-2014 15:03:27,38,7,5,+$1,438.0367,444.0212,446.0245,448.8458,450.031,2.0033,0.21702,0.360,6,0.20692,1,space,+$1,$35.00,0.85714,hit
128_practice,03-Jun-2014 15:03:27,39,7,5,+$1,452.0263,458.0275,460.0308,462.4848,464.0207,2.0033,0.2504,0.340,6,0.23185,1,space,+$1,$36.00,0.88095,hit
128_practice,03-Jun-2014 15:03:27,40,5,4,+$0,466.0328,472.0172,474.0205,476.7917,478.027,2.0033,0.20033,0.320,2,0.18901,1,space,+$0,$36.00,0.90476,hit
128_practice,03-Jun-2014 15:03:27,41,7,6,+$5,480.039,482.0169,484.0202,486.758,488.0268,2.0033,0.23372,0.320,6,0.21465,1,space,+$5,$41.00,0.92857,hit
128_practice,03-Jun-2014 15:03:27,42,5,5,+$1,490.0387,496.0232,498.0265,500.3971,502.0164,2.0033,0.23372,0.320,2,0.21558,1,space,+$1,$42.00,0.95238,hit
