Subject,RunTime,Trial,TR,TrialType,CueValue,TrialOnset,CueOnset,DelayOnset,TargetOnset,FeedBackOnset,CueDuration,TargetDuration,CurrentTargetDuration,ITI,RT,ACC,KeyPressed,TrialGain,Total,TotalWinPercent,Timing
20_b1,13-Jan-2014 17:03:29,43,7,1,-$0,0.1395,12.0221,14.0229,16.8727,18.0225,2.0008,0.28352,0.300,6,0.24884,1,1!,$0,$0.00,0.02381,hit
20_b1,13-Jan-2014 17:03:29,44,7,2,-$1,20.2872,26.0221,28.0226,30.9388,32.0227,2.0005,0.31733,0.300,6,0.27899,1,1!,$0,$0.00,0.047619,hit
20_b1,13-Jan-2014 17:03:29,45,7,2,-$1,34.0324,40.0219,42.0221,44.3561,46.0227,2.0002,0.31668,0.300,6,NaN,0,NaN,-$1,$-1.00,0.047619,noResponse
20_b1,13-Jan-2014 17:03:29,46,5,4,+$0,48.0321,54.0223,56.0219,58.9551,60.0218,1.9996,0.30061,0.300,2,0.28177,1,1!,+$0,$-1.00,0.071429,hit
20_b1,13-Jan-2014 17:03:29,47,6,4,+$0,62.0293,64.0227,66.0224,68.7552,70.0223,1.9998,0.30094,0.300,4,0.19388,0,1!,$0,$-1.00,0.071429,late
20_b1,13-Jan-2014 17:03:29,48,6,6,+$5,72.0299,76.0219,78.0227,80.3393,82.0061,2.0009,0.30021,0.300,4,NaN,0,NaN,$0,$-1.00,0.071429,noResponse
20_b1,13-Jan-2014 17:03:29,49,7,4,+$0,84.0302,88.0224,90.0229,92.4725,94.0227,2.0005,0.28342,0.300,6,0.24737,1,1!,+$0,$-1.00,0.095238,hit
20_b1,13-Jan-2014 17:03:29,50,6,4,+$0,96.0312,102.0223,104.0218,106.6724,108.0219,1.9995,0.28282,0.280,4,NaN,0,NaN,$0,$-1.00,0.095238,noResponse
20_b1,13-Jan-2014 17:03:29,51,7,3,-$5,110.0303,114.0227,116.0228,118.9886,120.0059,2.0001,0.30057,0.300,6,NaN,0,NaN,-$5,$-6.00,0.095238,noResponse
20_b1,13-Jan-2014 17:03:29,52,6,2,-$1,122.0292,128.0226,130.0225,133.0052,134.0223,1.9998,0.29993,0.300,4,NaN,0,NaN,-$1,$-7.00,0.095238,noResponse
20_b1,13-Jan-2014 17:03:29,53,7,5,+$1,136.0301,140.0228,142.0228,144.3724,146.0225,2,0.3005,0.300,6,0.24133,0,1!,$0,$-7.00,0.095238,late
20_b1,13-Jan-2014 17:03:29,54,5,1,-$0,148.0333,154.0218,156.0218,158.9893,160.0226,2,0.31635,0.300,2,NaN,0,NaN,-$0,$-7.00,0.095238,noResponse
20_b1,13-Jan-2014 17:03:29,55,5,5,+$1,162.0297,164.0224,166.0229,168.9728,170.022,2.0005,0.31572,0.300,2,0.055308,0,1!,$0,$-7.00,0.095238,late
20_b1,13-Jan-2014 17:03:29,56,7,5,+$1,172.0292,174.0218,176.0227,178.6393,180.0062,2.0009,0.23257,0.300,6,0.21624,1,1!,+$1,$-6.00,0.11905,hit
20_b1,13-Jan-2014 17:03:29,57,5,6,+$5,182.0303,188.0221,190.0228,192.8558,194.0061,2.0007,0.31622,0.300,2,NaN,0,NaN,$0,$-6.00,0.11905,noResponse
20_b1,13-Jan-2014 17:03:29,58,6,3,-$5,196.0303,198.0221,200.0228,202.3727,204.0218,2.0007,0.31661,0.300,4,NaN,0,NaN,-$5,$-11.00,0.11905,noResponse
20_b1,13-Jan-2014 17:03:29,59,6,4,+$0,206.0305,210.0229,212.0229,214.5885,216.0219,2,0.30002,0.300,4,NaN,0,NaN,$0,$-11.00,0.11905,noResponse
20_b1,13-Jan-2014 17:03:29,60,7,2,-$1,218.0318,222.0228,224.0227,226.9391,228.0086,1.9998,0.33323,0.320,6,NaN,0,NaN,-$1,$-12.00,0.11905,noResponse
20_b1,13-Jan-2014 17:03:29,61,5,1,-$0,230.0348,236.0056,238.0228,240.856,242.0227,2.0172,0.25008,0.300,2,0.2235,1,1!,$0,$-12.00,0.14286,hit
20_b1,13-Jan-2014 17:03:29,62,6,2,-$1,244.0304,246.0226,248.0227,250.9724,252.0221,2.0002,0.28302,0.340,4,0.25708,1,1!,$0,$-12.00,0.16667,hit
20_b1,13-Jan-2014 17:03:29,63,7,6,+$5,254.0303,258.0226,260.0223,262.7718,264.0219,1.9997,0.2505,0.300,6,0.24199,1,1!,+$5,$-7.00,0.19048,hit
20_b1,13-Jan-2014 17:03:29,64,7,3,-$5,266.0304,272.0226,274.0227,276.2895,278.0221,2,0.31619,0.300,6,NaN,0,NaN,-$5,$-12.00,0.19048,noResponse
20_b1,13-Jan-2014 17:03:29,65,6,6,+$5,280.0334,286.0226,288.0228,290.889,292.0061,2.0002,0.23362,0.320,4,0.21297,1,1!,+$5,$-7.00,0.21429,hit
20_b1,13-Jan-2014 17:03:29,66,5,5,+$1,294.0295,298.0228,300.0219,302.9719,304.0226,1.9991,0.23382,0.320,2,0.2273,1,1!,+$1,$-6.00,0.2381,hit
20_b1,13-Jan-2014 17:03:29,67,6,3,-$5,306.0303,308.0223,310.0221,312.7724,314.022,1.9998,0.25033,0.320,4,0.22843,1,1!,$0,$-6.00,0.2619,hit
20_b1,13-Jan-2014 17:03:29,68,7,2,-$1,316.0302,320.0226,322.0227,324.8228,326.0221,2,0.24988,0.360,6,0.21667,1,1!,$0,$-6.00,0.28571,hit
20_b1,13-Jan-2014 17:03:29,69,6,5,+$1,328.0301,334.0229,336.0227,338.8384,340.0223,1.9998,0.25069,0.340,4,0.23315,1,1!,+$1,$-5.00,0.30952,hit
20_b1,13-Jan-2014 17:03:29,70,5,1,-$0,342.0301,346.0224,348.0223,350.5557,352.0227,1.9999,0.28376,0.280,2,NaN,0,NaN,-$0,$-5.00,0.30952,noResponse
20_b1,13-Jan-2014 17:03:29,71,5,5,+$1,354.0299,356.0223,358.0221,360.7562,362.0223,1.9998,0.29917,0.360,2,0.27087,1,1!,+$1,$-4.00,0.33333,hit
20_b1,13-Jan-2014 17:03:29,72,7,6,+$5,364.03,366.0229,368.0226,370.3885,372.0061,1.9997,0.35085,0.340,6,NaN,0,NaN,$0,$-4.00,0.33333,noResponse
20_b1,13-Jan-2014 17:03:29,73,7,1,-$0,374.0303,380.0227,382.0224,384.7889,386.0059,1.9996,0.30043,0.300,6,NaN,0,NaN,-$0,$-4.00,0.33333,noResponse
20_b1,13-Jan-2014 17:03:29,74,7,4,+$0,388.0302,394.0219,396.0224,398.2895,400.0226,2.0006,0.33293,0.320,6,NaN,0,NaN,$0,$-4.00,0.33333,noResponse
20_b1,13-Jan-2014 17:03:29,75,5,2,-$1,402.0338,408.0229,410.022,412.4727,414.0061,1.9991,0.39925,0.380,2,NaN,0,NaN,-$1,$-5.00,0.33333,noResponse
20_b1,13-Jan-2014 17:03:29,76,5,4,+$0,416.0294,418.0224,420.0223,422.2889,424.0219,1.9998,0.35052,0.340,2,NaN,0,NaN,$0,$-5.00,0.33333,noResponse
20_b1,13-Jan-2014 17:03:29,77,6,6,+$5,426.0305,428.0219,430.0225,432.339,434.0225,2.0006,0.26715,0.360,4,0.2314,1,1!,+$5,$0.00,0.35714,hit
20_b1,13-Jan-2014 17:03:29,78,6,1,-$0,436.0304,440.0219,442.0221,444.8727,446.0227,2.0001,0.33235,0.320,4,NaN,0,NaN,-$0,$0.00,0.35714,noResponse
20_b1,13-Jan-2014 17:03:29,79,5,6,+$5,448.0311,452.0223,454.0221,456.7728,458.0228,1.9998,0.24928,0.380,2,0.21809,1,1!,+$5,$5.00,0.38095,hit
20_b1,13-Jan-2014 17:03:29,80,6,3,-$5,460.0312,462.022,464.0227,466.4892,468.0224,2.0007,0.2664,0.340,4,0.2328,1,1!,$0,$5.00,0.40476,hit
20_b1,13-Jan-2014 17:03:29,81,5,5,+$1,470.0307,474.022,476.0218,478.972,480.0227,1.9998,0.24978,0.340,2,0.22898,1,1!,+$1,$6.00,0.42857,hit
20_b1,13-Jan-2014 17:03:29,82,5,3,-$5,482.0321,484.0224,486.0226,488.2892,490.0221,2.0003,0.36709,0.360,2,NaN,0,NaN,-$5,$1.00,0.42857,noResponse
20_b1,13-Jan-2014 17:03:29,83,5,3,-$5,492.0316,494.0218,496.0227,498.5892,500.0062,2.0009,0.38362,0.380,2,NaN,0,NaN,-$5,$-4.00,0.42857,noResponse
20_b1,13-Jan-2014 17:03:29,84,6,1,-$0,502.0314,504.0228,506.0221,508.5394,510.0218,1.9993,0.34906,0.340,4,NaN,0,NaN,-$0,$-4.00,0.42857,noResponse
